subject	 trial	 image1	 image1tex	 image1shape	 image1scene	 image2	 image2tex	 image2shape	 image2scene	 answer	 RT	
8	 1	 8	 1	 1	 0	 13	 0	 2	 0	 0	 1425.18	 
8	 2	 16	 1	 2	 1	 7	 0	 1	 0	 0	 998.18	 
8	 3	 8	 1	 1	 0	 6	 1	 0	 2	 0	 727.76	 
8	 4	 17	 0	 2	 2	 18	 1	 2	 2	 1	 1004.90	 
8	 5	 14	 1	 2	 0	 16	 1	 2	 1	 1	 939.68	 
8	 6	 15	 0	 2	 1	 3	 0	 0	 1	 0	 1124.45	 
8	 7	 8	 1	 1	 0	 3	 0	 0	 1	 0	 999.49	 
8	 8	 6	 1	 0	 2	 18	 1	 2	 2	 0	 865.61	 
8	 9	 14	 1	 2	 0	 12	 1	 1	 2	 0	 859.24	 
8	 10	 5	 0	 0	 2	 1	 0	 0	 0	 1	 935.47	 
8	 11	 2	 1	 0	 0	 7	 0	 1	 0	 0	 1005.23	 
8	 12	 17	 0	 2	 2	 7	 0	 1	 0	 1	 940.33	 
8	 13	 4	 1	 0	 1	 9	 0	 1	 1	 0	 1399.66	 
8	 14	 12	 1	 1	 2	 2	 1	 0	 0	 0	 1472.01	 
8	 15	 6	 1	 0	 2	 6	 1	 0	 2	 1	 859.89	 
8	 16	 3	 0	 0	 1	 4	 1	 0	 1	 1	 1006.43	 
8	 17	 3	 0	 0	 1	 5	 0	 0	 2	 1	 1266.42	 
8	 18	 1	 0	 0	 0	 13	 0	 2	 0	 0	 1001.14	 
8	 19	 10	 1	 1	 1	 8	 1	 1	 0	 1	 1199.21	 
8	 20	 18	 1	 2	 2	 6	 1	 0	 2	 0	 1001.07	 
8	 21	 16	 1	 2	 1	 2	 1	 0	 0	 0	 927.42	 
8	 22	 4	 1	 0	 1	 6	 1	 0	 2	 1	 864.57	 
8	 23	 5	 0	 0	 2	 9	 0	 1	 1	 1	 934.77	 
8	 24	 5	 0	 0	 2	 15	 0	 2	 1	 0	 1398.64	 
8	 25	 12	 1	 1	 2	 14	 1	 2	 0	 0	 1203.59	 
8	 26	 7	 0	 1	 0	 7	 0	 1	 0	 1	 928.46	 
8	 27	 6	 1	 0	 2	 2	 1	 0	 0	 1	 731.00	 
8	 28	 6	 1	 0	 2	 10	 1	 1	 1	 0	 671.05	 
8	 29	 14	 1	 2	 0	 10	 1	 1	 1	 0	 672.91	 
8	 30	 6	 1	 0	 2	 9	 0	 1	 1	 1	 729.93	 
8	 31	 6	 1	 0	 2	 7	 0	 1	 0	 0	 724.24	 
8	 32	 10	 1	 1	 1	 11	 0	 1	 2	 0	 737.69	 
8	 33	 7	 0	 1	 0	 13	 0	 2	 0	 0	 995.52	 
8	 34	 11	 0	 1	 2	 6	 1	 0	 2	 0	 936.13	 
8	 35	 12	 1	 1	 2	 17	 0	 2	 2	 0	 1068.67	 
8	 36	 17	 0	 2	 2	 13	 0	 2	 0	 1	 871.39	 
8	 37	 18	 1	 2	 2	 4	 1	 0	 1	 0	 801.38	 
8	 38	 6	 1	 0	 2	 11	 0	 1	 2	 0	 927.65	 
8	 39	 14	 1	 2	 0	 6	 1	 0	 2	 0	 728.94	 
8	 40	 12	 1	 1	 2	 5	 0	 0	 2	 0	 736.94	 
8	 41	 15	 0	 2	 1	 8	 1	 1	 0	 1	 1073.35	 
8	 42	 12	 1	 1	 2	 11	 0	 1	 2	 1	 947.37	 
8	 43	 7	 0	 1	 0	 2	 1	 0	 0	 0	 794.75	 
8	 44	 8	 1	 1	 0	 17	 0	 2	 2	 1	 925.55	 
8	 45	 13	 0	 2	 0	 13	 0	 2	 0	 1	 791.87	 
8	 46	 11	 0	 1	 2	 7	 0	 1	 0	 1	 1068.89	 
8	 47	 5	 0	 0	 2	 12	 1	 1	 2	 0	 791.96	 
8	 48	 12	 1	 1	 2	 9	 0	 1	 1	 1	 934.55	 
8	 49	 13	 0	 2	 0	 11	 0	 1	 2	 0	 800.39	 
8	 50	 13	 0	 2	 0	 9	 0	 1	 1	 0	 996.84	 
8	 51	 8	 1	 1	 0	 4	 1	 0	 1	 0	 928.22	 
8	 52	 9	 0	 1	 1	 18	 1	 2	 2	 0	 997.06	 
8	 53	 1	 0	 0	 0	 1	 0	 0	 0	 1	 1129.07	 
8	 54	 13	 0	 2	 0	 1	 0	 0	 0	 0	 872.34	 
8	 55	 13	 0	 2	 0	 16	 1	 2	 1	 1	 999.51	 
8	 56	 5	 0	 0	 2	 13	 0	 2	 0	 0	 1137.04	 
8	 57	 15	 0	 2	 1	 13	 0	 2	 0	 0	 1407.39	 
8	 58	 16	 1	 2	 1	 8	 1	 1	 0	 0	 998.41	 
8	 59	 6	 1	 0	 2	 13	 0	 2	 0	 0	 1198.27	 
8	 60	 10	 1	 1	 1	 9	 0	 1	 1	 0	 1673.57	 
8	 61	 7	 0	 1	 0	 3	 0	 0	 1	 0	 3597.55	 
8	 62	 1	 0	 0	 0	 6	 1	 0	 2	 1	 1260.11	 
8	 63	 16	 1	 2	 1	 13	 0	 2	 0	 0	 939.34	 
8	 64	 18	 1	 2	 2	 13	 0	 2	 0	 1	 1067.58	 
8	 65	 8	 1	 1	 0	 2	 1	 0	 0	 0	 806.00	 
8	 66	 3	 0	 0	 1	 1	 0	 0	 0	 1	 860.14	 
8	 67	 4	 1	 0	 1	 11	 0	 1	 2	 0	 1057.52	 
8	 68	 2	 1	 0	 0	 18	 1	 2	 2	 0	 1195.05	 
8	 69	 11	 0	 1	 2	 15	 0	 2	 1	 0	 1459.66	 
8	 70	 13	 0	 2	 0	 15	 0	 2	 1	 1	 1127.08	 
8	 71	 15	 0	 2	 1	 17	 0	 2	 2	 1	 1333.40	 
8	 72	 17	 0	 2	 2	 14	 1	 2	 0	 1	 999.03	 
8	 73	 9	 0	 1	 1	 2	 1	 0	 0	 0	 1601.57	 
8	 74	 1	 0	 0	 0	 14	 1	 2	 0	 0	 1472.97	 
8	 75	 2	 1	 0	 0	 15	 0	 2	 1	 0	 1061.10	 
8	 76	 14	 1	 2	 0	 17	 0	 2	 2	 1	 1128.38	 
8	 77	 6	 1	 0	 2	 5	 0	 0	 2	 1	 1135.48	 
8	 78	 4	 1	 0	 1	 4	 1	 0	 1	 1	 995.12	 
8	 79	 5	 0	 0	 2	 3	 0	 0	 1	 1	 1001.65	 
8	 80	 1	 0	 0	 0	 5	 0	 0	 2	 1	 1261.04	 
8	 81	 15	 0	 2	 1	 18	 1	 2	 2	 0	 1606.65	 
8	 82	 16	 1	 2	 1	 5	 0	 0	 2	 0	 1468.93	 
8	 83	 10	 1	 1	 1	 14	 1	 2	 0	 0	 1274.94	 
8	 84	 7	 0	 1	 0	 12	 1	 1	 2	 1	 1201.01	 
8	 85	 4	 1	 0	 1	 1	 0	 0	 0	 1	 1798.24	 
8	 86	 2	 1	 0	 0	 14	 1	 2	 0	 0	 1734.61	 
8	 87	 10	 1	 1	 1	 6	 1	 0	 2	 0	 2104.84	 
8	 88	 2	 1	 0	 0	 1	 0	 0	 0	 1	 4140.94	 
8	 89	 16	 1	 2	 1	 10	 1	 1	 1	 0	 2524.18	 
8	 90	 4	 1	 0	 1	 2	 1	 0	 0	 1	 996.40	 
8	 91	 13	 0	 2	 0	 10	 1	 1	 1	 0	 1285.74	 
8	 92	 18	 1	 2	 2	 1	 0	 0	 0	 0	 2337.41	 
8	 93	 7	 0	 1	 0	 5	 0	 0	 2	 0	 4062.98	 
8	 94	 11	 0	 1	 2	 14	 1	 2	 0	 0	 3313.37	 
8	 95	 11	 0	 1	 2	 17	 0	 2	 2	 0	 1597.94	 
8	 96	 2	 1	 0	 0	 6	 1	 0	 2	 1	 1931.55	 
8	 97	 5	 0	 0	 2	 14	 1	 2	 0	 0	 1402.29	 
8	 98	 1	 0	 0	 0	 11	 0	 1	 2	 0	 2055.93	 
8	 99	 2	 1	 0	 0	 10	 1	 1	 1	 0	 1068.26	 
8	 100	 8	 1	 1	 0	 11	 0	 1	 2	 1	 1592.36	 
8	 101	 3	 0	 0	 1	 17	 0	 2	 2	 0	 1200.22	 
8	 102	 5	 0	 0	 2	 6	 1	 0	 2	 1	 1596.44	 
8	 103	 6	 1	 0	 2	 14	 1	 2	 0	 0	 1056.63	 
8	 104	 16	 1	 2	 1	 18	 1	 2	 2	 1	 3144.54	 
8	 105	 3	 0	 0	 1	 15	 0	 2	 1	 0	 1467.46	 
8	 106	 8	 1	 1	 0	 12	 1	 1	 2	 1	 1138.87	 
8	 107	 17	 0	 2	 2	 1	 0	 0	 0	 0	 1134.10	 
8	 108	 13	 0	 2	 0	 12	 1	 1	 2	 0	 1599.85	 
8	 109	 7	 0	 1	 0	 1	 0	 0	 0	 0	 1326.41	 
8	 110	 13	 0	 2	 0	 4	 1	 0	 1	 0	 999.93	 
8	 111	 6	 1	 0	 2	 8	 1	 1	 0	 0	 1190.24	 
8	 112	 15	 0	 2	 1	 16	 1	 2	 1	 1	 1199.24	 
8	 113	 15	 0	 2	 1	 11	 0	 1	 2	 0	 1339.72	 
8	 114	 14	 1	 2	 0	 7	 0	 1	 0	 0	 1221.00	 
8	 115	 7	 0	 1	 0	 11	 0	 1	 2	 1	 1133.21	 
8	 116	 18	 1	 2	 2	 15	 0	 2	 1	 1	 2790.06	 
8	 117	 11	 0	 1	 2	 3	 0	 0	 1	 0	 2352.67	 
8	 118	 17	 0	 2	 2	 6	 1	 0	 2	 0	 2066.38	 
8	 119	 1	 0	 0	 0	 7	 0	 1	 0	 0	 2582.69	 
8	 120	 5	 0	 0	 2	 16	 1	 2	 1	 0	 1798.27	 
8	 121	 18	 1	 2	 2	 5	 0	 0	 2	 0	 3387.36	 
8	 122	 10	 1	 1	 1	 3	 0	 0	 1	 0	 1271.12	 
8	 123	 12	 1	 1	 2	 6	 1	 0	 2	 0	 2171.82	 
8	 124	 16	 1	 2	 1	 14	 1	 2	 0	 1	 1805.97	 
8	 125	 2	 1	 0	 0	 13	 0	 2	 0	 0	 1339.18	 
8	 126	 4	 1	 0	 1	 14	 1	 2	 0	 0	 1273.51	 
8	 127	 3	 0	 0	 1	 14	 1	 2	 0	 0	 1071.91	 
8	 128	 16	 1	 2	 1	 16	 1	 2	 1	 1	 1592.68	 
8	 129	 11	 0	 1	 2	 18	 1	 2	 2	 0	 1606.63	 
8	 130	 15	 0	 2	 1	 9	 0	 1	 1	 1	 1066.65	 
8	 131	 6	 1	 0	 2	 4	 1	 0	 1	 1	 1004.70	 
8	 132	 16	 1	 2	 1	 6	 1	 0	 2	 0	 1057.60	 
8	 133	 12	 1	 1	 2	 3	 0	 0	 1	 0	 1460.87	 
8	 134	 4	 1	 0	 1	 16	 1	 2	 1	 0	 1196.78	 
8	 135	 5	 0	 0	 2	 5	 0	 0	 2	 1	 1339.22	 
8	 136	 12	 1	 1	 2	 8	 1	 1	 0	 1	 2819.71	 
8	 137	 13	 0	 2	 0	 7	 0	 1	 0	 0	 1888.02	 
8	 138	 1	 0	 0	 0	 4	 1	 0	 1	 1	 2077.40	 
8	 139	 16	 1	 2	 1	 15	 0	 2	 1	 0	 2692.43	 
8	 140	 8	 1	 1	 0	 16	 1	 2	 1	 0	 3821.61	 
8	 141	 2	 1	 0	 0	 5	 0	 0	 2	 1	 1341.03	 
8	 142	 7	 0	 1	 0	 10	 1	 1	 1	 1	 1595.69	 
8	 143	 12	 1	 1	 2	 10	 1	 1	 1	 1	 2839.50	 
8	 144	 8	 1	 1	 0	 10	 1	 1	 1	 1	 1272.45	 
8	 145	 12	 1	 1	 2	 15	 0	 2	 1	 0	 1867.86	 
8	 146	 17	 0	 2	 2	 10	 1	 1	 1	 0	 1736.24	 
8	 147	 12	 1	 1	 2	 12	 1	 1	 2	 1	 1289.04	 
8	 148	 9	 0	 1	 1	 8	 1	 1	 0	 1	 2085.33	 
8	 149	 4	 1	 0	 1	 15	 0	 2	 1	 0	 998.87	 
8	 150	 6	 1	 0	 2	 3	 0	 0	 1	 1	 1056.92	 
8	 151	 13	 0	 2	 0	 18	 1	 2	 2	 1	 462.39	 
8	 152	 9	 0	 1	 1	 15	 0	 2	 1	 0	 1526.46	 
8	 153	 7	 0	 1	 0	 15	 0	 2	 1	 0	 1395.39	 
8	 154	 11	 0	 1	 2	 11	 0	 1	 2	 1	 1933.55	 
8	 155	 14	 1	 2	 0	 4	 1	 0	 1	 0	 1941.17	 
8	 156	 14	 1	 2	 0	 18	 1	 2	 2	 1	 1329.89	 
8	 157	 3	 0	 0	 1	 2	 1	 0	 0	 1	 1199.12	 
8	 158	 7	 0	 1	 0	 16	 1	 2	 1	 0	 1540.80	 
8	 159	 9	 0	 1	 1	 13	 0	 2	 0	 1	 865.20	 
8	 160	 11	 0	 1	 2	 16	 1	 2	 1	 0	 1930.32	 
8	 161	 12	 1	 1	 2	 16	 1	 2	 1	 0	 1072.91	 
8	 162	 16	 1	 2	 1	 12	 1	 1	 2	 0	 1206.21	 
8	 163	 18	 1	 2	 2	 11	 0	 1	 2	 0	 3636.64	 
8	 164	 3	 0	 0	 1	 12	 1	 1	 2	 0	 1132.47	 
8	 165	 7	 0	 1	 0	 6	 1	 0	 2	 0	 3108.54	 
8	 166	 12	 1	 1	 2	 1	 0	 0	 0	 0	 2689.14	 
8	 167	 2	 1	 0	 0	 4	 1	 0	 1	 1	 997.56	 
8	 168	 17	 0	 2	 2	 12	 1	 1	 2	 0	 1462.09	 
8	 169	 6	 1	 0	 2	 16	 1	 2	 1	 0	 870.99	 
8	 170	 13	 0	 2	 0	 6	 1	 0	 2	 0	 1268.52	 
8	 171	 2	 1	 0	 0	 17	 0	 2	 2	 0	 1800.12	 
8	 172	 10	 1	 1	 1	 17	 0	 2	 2	 0	 2275.97	 
8	 173	 15	 0	 2	 1	 4	 1	 0	 1	 0	 1460.98	 
8	 174	 13	 0	 2	 0	 3	 0	 0	 1	 0	 1466.94	 
8	 175	 10	 1	 1	 1	 5	 0	 0	 2	 0	 4143.53	 
8	 176	 3	 0	 0	 1	 11	 0	 1	 2	 0	 1462.69	 
8	 177	 18	 1	 2	 2	 8	 1	 1	 0	 0	 1531.52	 
8	 178	 10	 1	 1	 1	 12	 1	 1	 2	 0	 31786.47	 
8	 179	 14	 1	 2	 0	 1	 0	 0	 0	 0	 1314.78	 
8	 180	 10	 1	 1	 1	 1	 0	 0	 0	 0	 2395.40	 
8	 181	 3	 0	 0	 1	 7	 0	 1	 0	 0	 1074.17	 
8	 182	 4	 1	 0	 1	 3	 0	 0	 1	 0	 659.97	 
8	 183	 18	 1	 2	 2	 17	 0	 2	 2	 1	 1132.82	 
8	 184	 4	 1	 0	 1	 5	 0	 0	 2	 1	 1126.78	 
8	 185	 10	 1	 1	 1	 18	 1	 2	 2	 0	 1800.69	 
8	 186	 2	 1	 0	 0	 8	 1	 1	 0	 0	 934.72	 
8	 187	 1	 0	 0	 0	 16	 1	 2	 1	 1	 1738.31	 
8	 188	 9	 0	 1	 1	 11	 0	 1	 2	 1	 1666.61	 
8	 189	 12	 1	 1	 2	 13	 0	 2	 0	 0	 1533.25	 
8	 190	 10	 1	 1	 1	 7	 0	 1	 0	 1	 1405.41	 
8	 191	 11	 0	 1	 2	 1	 0	 0	 0	 0	 2474.14	 
8	 192	 8	 1	 1	 0	 1	 0	 0	 0	 0	 1393.09	 
8	 193	 10	 1	 1	 1	 4	 1	 0	 1	 0	 1130.42	 
8	 194	 4	 1	 0	 1	 18	 1	 2	 2	 0	 1203.17	 
8	 195	 12	 1	 1	 2	 18	 1	 2	 2	 0	 1532.15	 
8	 196	 17	 0	 2	 2	 8	 1	 1	 0	 0	 1536.89	 
8	 197	 18	 1	 2	 2	 10	 1	 1	 1	 0	 1395.11	 
8	 198	 9	 0	 1	 1	 14	 1	 2	 0	 0	 1461.61	 
8	 199	 8	 1	 1	 0	 8	 1	 1	 0	 1	 1938.38	 
8	 200	 15	 0	 2	 1	 14	 1	 2	 0	 1	 1528.47	 
8	 201	 9	 0	 1	 1	 16	 1	 2	 1	 1	 1071.65	 
8	 202	 17	 0	 2	 2	 3	 0	 0	 1	 0	 1994.66	 
8	 203	 15	 0	 2	 1	 5	 0	 0	 2	 0	 793.42	 
8	 204	 1	 0	 0	 0	 2	 1	 0	 0	 0	 132.53	 
8	 205	 11	 0	 1	 2	 2	 1	 0	 0	 0	 665.14	 
8	 206	 18	 1	 2	 2	 9	 0	 1	 1	 0	 132.98	 
8	 207	 17	 0	 2	 2	 5	 0	 0	 2	 0	  66.54	 
8	 208	 3	 0	 0	 1	 16	 1	 2	 1	 0	 98219.26	 
8	 209	 10	 1	 1	 1	 10	 1	 1	 1	 0	 203.63	 
8	 210	 1	 0	 0	 0	 8	 1	 1	 0	 0	 1474.05	 
8	 211	 16	 1	 2	 1	 11	 0	 1	 2	 0	 1330.03	 
8	 212	 13	 0	 2	 0	 8	 1	 1	 0	 0	 1329.30	 
8	 213	 18	 1	 2	 2	 12	 1	 1	 2	 0	 1340.60	 
8	 214	 10	 1	 1	 1	 15	 0	 2	 1	 0	 1270.62	 
8	 215	 10	 1	 1	 1	 2	 1	 0	 0	 0	 999.07	 
8	 216	 18	 1	 2	 2	 14	 1	 2	 0	 1	 1134.53	 
8	 217	 5	 0	 0	 2	 7	 0	 1	 0	 0	 1327.11	 
8	 218	 14	 1	 2	 0	 13	 0	 2	 0	 1	 1193.93	 
8	 219	 6	 1	 0	 2	 1	 0	 0	 0	 1	 1139.08	 
8	 220	 2	 1	 0	 0	 2	 1	 0	 0	 1	 1126.27	 
8	 221	 14	 1	 2	 0	 9	 0	 1	 1	 0	 1068.70	 
8	 222	 2	 1	 0	 0	 11	 0	 1	 2	 0	 5111.34	 
8	 223	 14	 1	 2	 0	 3	 0	 0	 1	 1	 2600.62	 
8	 224	 17	 0	 2	 2	 16	 1	 2	 1	 1	 1339.90	 
8	 225	 16	 1	 2	 1	 9	 0	 1	 1	 0	 1939.42	 
8	 226	 4	 1	 0	 1	 12	 1	 1	 2	 0	 1524.55	 
8	 227	 10	 1	 1	 1	 13	 0	 2	 0	 0	 1135.37	 
8	 228	 5	 0	 0	 2	 4	 1	 0	 1	 0	 1061.08	 
8	 229	 16	 1	 2	 1	 17	 0	 2	 2	 1	 1531.60	 
8	 230	 18	 1	 2	 2	 7	 0	 1	 0	 0	 1204.38	 
8	 231	 15	 0	 2	 1	 12	 1	 1	 2	 0	 1061.18	 
8	 232	 9	 0	 1	 1	 5	 0	 0	 2	 0	 661.82	 
8	 233	 5	 0	 0	 2	 18	 1	 2	 2	 0	 1601.82	 
8	 234	 9	 0	 1	 1	 17	 0	 2	 2	 1	 2062.60	 
8	 235	 9	 0	 1	 1	 9	 0	 1	 1	 0	 1061.29	 
8	 236	 6	 1	 0	 2	 15	 0	 2	 1	 0	 1796.46	 
8	 237	 9	 0	 1	 1	 10	 1	 1	 1	 1	 930.03	 
8	 238	 17	 0	 2	 2	 15	 0	 2	 1	 1	 995.85	 
8	 239	 7	 0	 1	 0	 8	 1	 1	 0	 1	 862.44	 
8	 240	 1	 0	 0	 0	 12	 1	 1	 2	 0	 3943.72	 
8	 241	 9	 0	 1	 1	 1	 0	 0	 0	 0	 1124.01	 
8	 242	 4	 1	 0	 1	 13	 0	 2	 0	 0	 4099.83	 
8	 243	 1	 0	 0	 0	 18	 1	 2	 2	 0	 1999.24	 
8	 244	 8	 1	 1	 0	 14	 1	 2	 0	 0	 1138.84	 
8	 245	 14	 1	 2	 0	 14	 1	 2	 0	 0	 1868.34	 
8	 246	 11	 0	 1	 2	 4	 1	 0	 1	 0	 1470.58	 
8	 247	 4	 1	 0	 1	 8	 1	 1	 0	 0	 1824.37	 
8	 248	 11	 0	 1	 2	 9	 0	 1	 1	 0	 860.96	 
8	 249	 11	 0	 1	 2	 13	 0	 2	 0	 0	 1391.37	 
8	 250	 14	 1	 2	 0	 2	 1	 0	 0	 0	 1210.13	 
8	 251	 3	 0	 0	 1	 8	 1	 1	 0	 0	 1134.70	 
8	 252	 3	 0	 0	 1	 9	 0	 1	 1	 0	 1391.55	 
8	 253	 3	 0	 0	 1	 10	 1	 1	 1	 0	 4117.95	 
8	 254	 14	 1	 2	 0	 5	 0	 0	 2	 0	 1866.80	 
8	 255	 15	 0	 2	 1	 2	 1	 0	 0	 0	 1072.15	 
8	 256	 1	 0	 0	 0	 10	 1	 1	 1	 0	 3247.93	 
8	 257	 6	 1	 0	 2	 17	 0	 2	 2	 0	 1540.96	 
8	 258	 14	 1	 2	 0	 8	 1	 1	 0	 0	 1002.65	 
8	 259	 10	 1	 1	 1	 16	 1	 2	 1	 0	 1134.45	 
8	 260	 7	 0	 1	 0	 17	 0	 2	 2	 0	 872.47	 
8	 261	 13	 0	 2	 0	 5	 0	 0	 2	 0	 1204.98	 
8	 262	 15	 0	 2	 1	 7	 0	 1	 0	 0	 1797.16	 
8	 263	 8	 1	 1	 0	 18	 1	 2	 2	 0	 1330.15	 
8	 264	 17	 0	 2	 2	 9	 0	 1	 1	 0	 1193.28	 
8	 265	 2	 1	 0	 0	 12	 1	 1	 2	 0	 1657.50	 
8	 266	 14	 1	 2	 0	 15	 0	 2	 1	 1	 723.05	 
8	 267	 5	 0	 0	 2	 17	 0	 2	 2	 0	 1193.47	 
8	 268	 4	 1	 0	 1	 7	 0	 1	 0	 0	 659.27	 
8	 269	 4	 1	 0	 1	 17	 0	 2	 2	 0	 994.80	 
8	 270	 16	 1	 2	 1	 4	 1	 0	 1	 0	 998.26	 
8	 271	 11	 0	 1	 2	 12	 1	 1	 2	 0	 734.10	 
8	 272	 15	 0	 2	 1	 10	 1	 1	 1	 0	 927.29	 
8	 273	 3	 0	 0	 1	 13	 0	 2	 0	 0	 399.66	 
8	 274	 8	 1	 1	 0	 7	 0	 1	 0	 0	 193.58	 
8	 275	 11	 0	 1	 2	 8	 1	 1	 0	 0	 594.00	 
8	 276	 5	 0	 0	 2	 8	 1	 1	 0	 0	 1124.85	 
8	 277	 5	 0	 0	 2	 11	 0	 1	 2	 0	 3336.58	 
8	 278	 14	 1	 2	 0	 11	 0	 1	 2	 0	 2655.14	 
8	 279	 3	 0	 0	 1	 3	 0	 0	 1	 1	 2261.54	 
8	 280	 11	 0	 1	 2	 10	 1	 1	 1	 0	 4321.75	 
8	 281	 9	 0	 1	 1	 12	 1	 1	 2	 0	 4253.79	 
8	 282	 7	 0	 1	 0	 9	 0	 1	 1	 1	 1674.15	 
8	 283	 2	 1	 0	 0	 9	 0	 1	 1	 0	 4024.12	 
8	 284	 7	 0	 1	 0	 18	 1	 2	 2	 0	 1139.09	 
8	 285	 17	 0	 2	 2	 4	 1	 0	 1	 0	 1332.66	 
8	 286	 13	 0	 2	 0	 17	 0	 2	 2	 0	 1062.55	 
8	 287	 12	 1	 1	 2	 7	 0	 1	 0	 1	 1738.40	 
8	 288	 2	 1	 0	 0	 16	 1	 2	 1	 1	 3503.15	 
8	 289	 16	 1	 2	 1	 3	 0	 0	 1	 0	 1196.89	 
8	 290	 15	 0	 2	 1	 1	 0	 0	 0	 0	 1325.08	 
8	 291	 18	 1	 2	 2	 3	 0	 0	 1	 0	 1792.07	 
8	 292	 2	 1	 0	 0	 3	 0	 0	 1	 0	 1060.21	 
8	 293	 17	 0	 2	 2	 2	 1	 0	 0	 0	 1130.60	 
8	 294	 5	 0	 0	 2	 10	 1	 1	 1	 0	 1066.50	 
8	 295	 15	 0	 2	 1	 15	 0	 2	 1	 1	 1190.39	 
8	 296	 16	 1	 2	 1	 1	 0	 0	 0	 0	 2285.00	 
8	 297	 1	 0	 0	 0	 9	 0	 1	 1	 0	 2024.11	 
8	 298	 7	 0	 1	 0	 14	 1	 2	 0	 0	 1271.46	 
8	 299	 17	 0	 2	 2	 17	 0	 2	 2	 1	 1129.36	 
8	 300	 3	 0	 0	 1	 6	 1	 0	 2	 1	 1071.75	 
8	 301	 9	 0	 1	 1	 6	 1	 0	 2	 0	 1058.55	 
8	 302	 7	 0	 1	 0	 4	 1	 0	 1	 0	 1065.81	 
8	 303	 9	 0	 1	 1	 7	 0	 1	 0	 1	 2219.03	 
8	 304	 8	 1	 1	 0	 5	 0	 0	 2	 0	 858.85	 
8	 305	 11	 0	 1	 2	 5	 0	 0	 2	 0	 865.50	 
8	 306	 13	 0	 2	 0	 14	 1	 2	 0	 1	 1271.17	 
8	 307	 18	 1	 2	 2	 18	 1	 2	 2	 1	 2315.11	 
8	 308	 13	 0	 2	 0	 2	 1	 0	 0	 1	 3058.11	 
8	 309	 6	 1	 0	 2	 12	 1	 1	 2	 0	 1724.44	 
8	 310	 18	 1	 2	 2	 2	 1	 0	 0	 0	 2377.43	 
8	 311	 1	 0	 0	 0	 17	 0	 2	 2	 0	 2457.86	 
8	 312	 9	 0	 1	 1	 3	 0	 0	 1	 0	 1255.56	 
8	 313	 8	 1	 1	 0	 9	 0	 1	 1	 1	 1137.22	 
8	 314	 5	 0	 0	 2	 2	 1	 0	 0	 1	 1395.86	 
8	 315	 3	 0	 0	 1	 18	 1	 2	 2	 0	 999.80	 
8	 316	 18	 1	 2	 2	 16	 1	 2	 1	 1	 2662.71	 
8	 317	 17	 0	 2	 2	 11	 0	 1	 2	 0	 1468.31	 
8	 318	 4	 1	 0	 1	 10	 1	 1	 1	 0	 2799.93	 
8	 319	 8	 1	 1	 0	 15	 0	 2	 1	 0	 1129.95	 
8	 320	 1	 0	 0	 0	 3	 0	 0	 1	 0	 2007.49	 
8	 321	 1	 0	 0	 0	 15	 0	 2	 1	 1	 1200.72	 
8	 322	 9	 0	 1	 1	 4	 1	 0	 1	 1	 529.45	 
8	 323	 15	 0	 2	 1	 6	 1	 0	 2	 1	  61.24	 
8	 324	 12	 1	 1	 2	 4	 1	 0	 1	 1	  76.84	 
